9/16/2019	10:19 AM
Amplitude: 2.00 V
Freq  (Hz) 	 Gain (dB)  	 Phase (deg)
1000.054             63.737            -70.743
1122.057             63.095            -72.535
1258.962             66.601             66.372
1412.630             65.841            -72.074
1584.925             63.189            -63.226
1778.267             62.631            -43.860
1995.265             58.951            -79.689
2238.713             57.823            -72.417
2511.963             56.055            -81.225
2818.368             54.638            -75.872
3162.213             53.507            -77.355
3548.153             52.531            -78.416
3981.031             51.381            -86.578
4466.809             49.873            -81.252
5011.819             48.704            -67.256
5623.326             47.373            -82.524
6309.524             46.629            -83.048
7079.542             45.675            -80.628
7943.250             44.372            -87.131
8912.571             42.215            -86.276
9999.983             40.323            -85.839
11220.202             37.828            -84.271
12589.246             34.826            -84.757
14125.369             30.397            -81.625
15848.875             21.529            -69.691
17782.860             20.876             69.370
19952.655             30.114             82.940
22387.132             34.696             85.438
25118.887             37.794             85.093
28183.870             40.349             87.695
31622.685             42.302             86.533
35481.341             44.352             83.912
39810.687             45.937             85.287
44668.280             46.601             82.742
50118.752             47.818             88.471
56234.188             48.996             87.877
63095.801             51.089             80.363
70794.486             51.929             81.035
79432.875             52.934             74.110
89125.149             53.774             64.908
100000.016             53.491             68.085
