9/16/2019	10:08 AM
Amplitude: 2.00 V
Freq  (Hz) 	 Gain (dB)  	 Phase (deg)
1000.054             48.765            -161.014
1122.057             46.685            -163.541
1258.962             44.553            -163.514
1412.630             42.631            -164.542
1584.925             40.664            -167.752
1778.267             38.625            -168.062
1995.265             36.619            -169.670
2238.713             34.455            -170.639
2511.963             32.348            -171.517
2818.368             30.343            -171.970
3162.213             28.312            -172.715
3548.153             26.209            -173.399
3981.031             24.046            -174.068
4466.809             21.903            -174.384
5011.819             19.729            -174.811
5623.326             17.483            -175.400
6309.524             15.183            -175.312
7079.542             12.774            -175.473
7943.250             10.229            -175.314
8912.571              7.588            -175.059
9999.983              4.478            -174.505
11220.202              0.937            -173.823
12589.246             -3.582            -172.197
14125.369            -10.821            -165.234
15848.875            -20.347            -60.081
17782.860            -13.868            -12.645
19952.655             -9.179             -5.536
22387.132             -6.442             -3.012
25118.887             -4.702             -1.963
28183.870             -3.507             -1.357
31622.685             -2.651             -1.064
35481.341             -2.019             -0.879
39810.687             -1.548             -0.760
44668.280             -1.196             -0.357
50118.752             -0.920             -0.520
56234.188             -0.700             -0.691
63095.801             -0.546             -0.289
70794.486             -0.418             -0.104
79432.875             -0.312             -0.296
89125.149             -0.225             -0.114
100000.016             -0.170             -0.153
